{
  "schema_version": 1,
  "jspsych_version": "8.0.0",
  "recording_started_at": "2024-06-01T10:00:00.000Z",
  "recording_started_at_perf": 0,
  "user_agent": "Mozilla/5.0 (Macintosh; Intel Mac OS X 10_15_7) AppleWebKit/537.36",
  "viewport": { "w": 800, "h": 600, "dpr": 2, "scale": 1, "offset_x": 0, "offset_y": 0 },
  "rng": { "seed": "jspsych-replay-sample", "math_random_patched": true },
  "display_element_id": "jspsych-content",
  "stylesheets": [
    {
      "id": 1,
      "kind": "inline",
      "css": "body { background: #fafafa; color: #222; font-family: system-ui, sans-serif; } .jspsych-content { text-align: center; }",
      "media": null
    }
  ],
  "stylesheet_events": [],
  "viewport_changes": [],
  "rng_calls": [
    { "t": 12.5, "fn": "Math.random", "args": [], "result": 0.4782 },
    { "t": 13.1, "fn": "Math.random", "args": [], "result": 0.1093 }
  ],
  "ended_at_perf": 4200,
  "end_reason": "finished",
  "trials": [
    {
      "trial_index": 0,
      "t_start": 10,
      "t_dom_ready": 50,
      "t_end": 800,
      "plugin": "html-keyboard-response",
      "trial_data": {
        "rt": 750,
        "response": "f",
        "trial_type": "html-keyboard-response",
        "trial_index": 0,
        "time_elapsed": 800
      },
      "initial_dom": {
        "id": 1,
        "kind": "element",
        "tag": "div",
        "attrs": { "id": "jspsych-html-keyboard-response-stimulus" },
        "children": [
          {
            "id": 2,
            "kind": "element",
            "tag": "p",
            "attrs": { "style": "font-size: 48px; text-align: center;" },
            "children": [{ "id": 3, "kind": "text", "text": "+" }]
          }
        ]
      },
      "events": [
        { "type": "mouse.move", "t": 100, "x": 420, "y": 310 },
        { "type": "mouse.move", "t": 200, "x": 400, "y": 300 },
        { "type": "key.down", "t": 750, "key": "f", "code": "KeyF", "mods": { "ctrl": false, "shift": false, "alt": false, "meta": false }, "repeat": false, "target": null },
        { "type": "key.up", "t": 800, "key": "f", "code": "KeyF", "mods": { "ctrl": false, "shift": false, "alt": false, "meta": false }, "repeat": false, "target": null }
      ]
    },
    {
      "trial_index": 1,
      "t_start": 810,
      "t_dom_ready": 850,
      "t_end": 1600,
      "plugin": "html-keyboard-response",
      "trial_data": {
        "rt": 750,
        "response": "j",
        "trial_type": "html-keyboard-response",
        "trial_index": 1,
        "time_elapsed": 1600
      },
      "initial_dom": {
        "id": 10,
        "kind": "element",
        "tag": "div",
        "attrs": { "id": "jspsych-html-keyboard-response-stimulus" },
        "children": [
          {
            "id": 11,
            "kind": "element",
            "tag": "p",
            "attrs": { "style": "font-size: 48px; text-align: center;" },
            "children": [{ "id": 12, "kind": "text", "text": "▶" }]
          }
        ]
      },
      "events": [
        { "type": "mouse.move", "t": 900, "x": 390, "y": 295 },
        { "type": "mouse.move", "t": 1000, "x": 401, "y": 300 },
        { "type": "key.down", "t": 1550, "key": "j", "code": "KeyJ", "mods": { "ctrl": false, "shift": false, "alt": false, "meta": false }, "repeat": false, "target": null },
        { "type": "key.up", "t": 1600, "key": "j", "code": "KeyJ", "mods": { "ctrl": false, "shift": false, "alt": false, "meta": false }, "repeat": false, "target": null }
      ]
    },
    {
      "trial_index": 2,
      "t_start": 1620,
      "t_dom_ready": 1660,
      "t_end": 2900,
      "plugin": "survey-text",
      "trial_data": {
        "rt": 1240,
        "response": { "Q0": "hello world" },
        "trial_type": "survey-text",
        "trial_index": 2,
        "time_elapsed": 2900
      },
      "initial_dom": {
        "id": 20,
        "kind": "element",
        "tag": "div",
        "attrs": { "id": "jspsych-survey-text", "class": "jspsych-survey-text-form" },
        "children": [
          {
            "id": 21,
            "kind": "element",
            "tag": "p",
            "attrs": {},
            "children": [{ "id": 22, "kind": "text", "text": "Please describe what you saw:" }]
          },
          {
            "id": 23,
            "kind": "element",
            "tag": "input",
            "attrs": { "type": "text", "id": "jspsych-survey-text-response-0", "class": "jspsych-survey-text-input" },
            "children": []
          },
          {
            "id": 24,
            "kind": "element",
            "tag": "button",
            "attrs": { "id": "jspsych-survey-text-next", "class": "jspsych-btn" },
            "children": [{ "id": 25, "kind": "text", "text": "Continue" }]
          }
        ]
      },
      "events": [
        { "type": "mouse.move", "t": 1800, "x": 400, "y": 350 },
        { "type": "mouse.click", "t": 1850, "x": 400, "y": 350, "button": 0, "target": 23 },
        { "type": "dom.attr", "t": 1851, "node": 23, "name": "value", "value": "h" },
        { "type": "key.down", "t": 1855, "key": "h", "code": "KeyH", "mods": { "ctrl": false, "shift": false, "alt": false, "meta": false }, "repeat": false, "target": 23 },
        { "type": "dom.attr", "t": 1950, "node": 23, "name": "value", "value": "he" },
        { "type": "key.down", "t": 1960, "key": "e", "code": "KeyE", "mods": { "ctrl": false, "shift": false, "alt": false, "meta": false }, "repeat": false, "target": 23 },
        { "type": "dom.attr", "t": 2050, "node": 23, "name": "value", "value": "hel" },
        { "type": "key.down", "t": 2060, "key": "l", "code": "KeyL", "mods": { "ctrl": false, "shift": false, "alt": false, "meta": false }, "repeat": false, "target": 23 },
        { "type": "dom.attr", "t": 2150, "node": 23, "name": "value", "value": "hell" },
        { "type": "key.down", "t": 2160, "key": "l", "code": "KeyL", "mods": { "ctrl": false, "shift": false, "alt": false, "meta": false }, "repeat": false, "target": 23 },
        { "type": "dom.attr", "t": 2250, "node": 23, "name": "value", "value": "hello" },
        { "type": "key.down", "t": 2260, "key": "o", "code": "KeyO", "mods": { "ctrl": false, "shift": false, "alt": false, "meta": false }, "repeat": false, "target": 23 },
        { "type": "dom.attr", "t": 2350, "node": 23, "name": "value", "value": "hello " },
        { "type": "key.down", "t": 2360, "key": " ", "code": "Space", "mods": { "ctrl": false, "shift": false, "alt": false, "meta": false }, "repeat": false, "target": 23 },
        { "type": "dom.attr", "t": 2550, "node": 23, "name": "value", "value": "hello world" },
        { "type": "mouse.move", "t": 2700, "x": 400, "y": 430 },
        { "type": "mouse.click", "t": 2800, "x": 400, "y": 430, "button": 0, "target": 24 }
      ]
    },
    {
      "trial_index": 3,
      "t_start": 2920,
      "t_dom_ready": 2960,
      "t_end": 4100,
      "plugin": "html-button-response",
      "trial_data": {
        "rt": 1140,
        "response": 0,
        "trial_type": "html-button-response",
        "trial_index": 3,
        "time_elapsed": 4100
      },
      "initial_dom": {
        "id": 30,
        "kind": "element",
        "tag": "div",
        "attrs": { "id": "jspsych-html-button-response-stimulus" },
        "children": [
          {
            "id": 31,
            "kind": "element",
            "tag": "p",
            "attrs": { "style": "text-align: center;" },
            "children": [{ "id": 32, "kind": "text", "text": "Thanks for participating! How difficult was this task?" }]
          },
          {
            "id": 33,
            "kind": "element",
            "tag": "div",
            "attrs": { "id": "jspsych-html-button-response-btngroup", "style": "display: flex; gap: 8px; justify-content: center; margin-top: 16px;" },
            "children": [
              {
                "id": 34,
                "kind": "element",
                "tag": "button",
                "attrs": { "class": "jspsych-btn", "data-choice": "0" },
                "children": [{ "id": 35, "kind": "text", "text": "Easy" }]
              },
              {
                "id": 36,
                "kind": "element",
                "tag": "button",
                "attrs": { "class": "jspsych-btn", "data-choice": "1" },
                "children": [{ "id": 37, "kind": "text", "text": "Medium" }]
              },
              {
                "id": 38,
                "kind": "element",
                "tag": "button",
                "attrs": { "class": "jspsych-btn", "data-choice": "2" },
                "children": [{ "id": 39, "kind": "text", "text": "Hard" }]
              }
            ]
          }
        ]
      },
      "events": [
        { "type": "mouse.move", "t": 3200, "x": 300, "y": 400 },
        { "type": "mouse.move", "t": 3400, "x": 320, "y": 420 },
        { "type": "mouse.move", "t": 3700, "x": 340, "y": 430 },
        { "type": "mouse.click", "t": 4090, "x": 340, "y": 430, "button": 0, "target": 34 }
      ]
    }
  ]
}
